File: Data/HXN_XANES/FeLibNov2021.nor
# XDI/1.0 Demeter/0.9.26
# Demeter.output_filetype: multicolumn normalized mu(E)
# Element.symbol: Fe
# Element.edge: K
# Column.1: energy eV
# Column.2: Magnetite
# Column.3: Maghemite
# Column.4: Goethite
# Column.5: HFO
# Column.6: FeIII_sulfate
# Column.7: Fe3P
# Column.8: LiFe(II)PO4
# Column.9: Fe(III)PO4
# Column.10: Pyrite
# Column.11: StainlessSteelNP
# Column.12: Hematite_NP
#------------------------
#  energy  Magnetite  Maghemite  Goethite  HFO  FeIII_sulfate  Fe3P  LiFe(II)PO4  Fe(III)PO4  Pyrite  StainlessSteelNP  Hematite_NP
  7090       0.0031977   0.00041358   0.00225507   0.00222623   0.00249765   0.00167546   0.00269333   0.00256914  -0.000709619  -0.00108026   0.00134888
  7090.35       0.00299842   0.000610505   0.00216779   0.00213275   0.00241057   0.00156799   0.0025245   0.00235111  -0.00074871  -0.00106941   0.00126402
  7090.7       0.00283638   0.000474577   0.00208051   0.00203927   0.00232348   0.00146052   0.00235567   0.00213308  -0.000787802  -0.00101108   0.00117917
  7091.06       0.00257876   0.00030456   0.00199323   0.00194579   0.0022364   0.00135304   0.00218685   0.00191505  -0.000826894  -0.000952749   0.00109431
  7091.41       0.00226781   0.000222527   0.00190583   0.00185218   0.0021492   0.00124542   0.00201778   0.00169672  -0.000838727  -0.000894337   0.00100934
  7091.76       0.00232236   0.00011705   0.00181855   0.00175869   0.00206212   0.00113795   0.00184896   0.00147869  -0.000789355  -0.000836005   0.000924483
  7092.11       0.00192641   2.632e-05   0.00173127   0.00166521   0.00197503   0.00103048   0.00168013   0.00126066  -0.000739983  -0.000777674   0.000820082
  7092.46       0.0016724   1.73667e-05   0.00164399   0.00157173   0.00188795   0.000923011   0.0015113   0.00104263  -0.000690612  -0.000719343   0.000881445
  7092.82       0.0013785   4.48012e-05   0.00155672   0.00147825   0.00180087   0.00081554   0.00134248   0.000824605  -0.00064124  -0.000661011   0.000705916
  7093.17       0.00142495  -0.000335116   0.00146944   0.00138477   0.00171379   0.000708069   0.00117365   0.000606577  -0.000591868  -0.00060268   0.000609452
  7093.52       0.00106726  -0.000575994   0.00138216   0.00129129   0.0016267   0.000600598   0.00100482   0.000388548  -0.000542496  -0.000544349   0.000218241
  7093.87       0.000954003  -0.00037294   0.00129488   0.00119781   0.00153962   0.000493127   0.000835993   0.000170519  -0.000493124  -0.000486017   0.000456098
  7094.23       0.000691314  -0.000578884   0.00120748   0.0011042   0.00145242   0.000385506   0.000666932  -4.7812e-05  -0.000443683  -0.000427605   0.000251357
  7094.58       0.00081447  -0.000207489   0.0011202   0.00101072   0.00136534   0.000280401   0.000513444  -0.000194783  -0.000394311  -0.000369274   0.000290123
  7094.93       0.000777576  -0.000350885   0.00103292   0.000917235   0.00127825   0.00018375   0.000417878  -0.000100964  -0.00034494  -0.000310943   0.000116144
  7095.28       0.000607607  -0.000384353   0.000945645   0.000823754   0.00119117   8.70994e-05   0.000322311  -7.14604e-06  -0.000295568  -0.000252611   0.000300745
  7095.63       0.000363431  -0.000475466   0.000858366   0.000730273   0.00110409  -9.55133e-06   0.000226744   8.66723e-05  -0.000246196  -0.00019428   0.000291535
  7095.99       0.000117358  -0.000577112   0.000771088   0.000636792   0.00101701  -0.000106202   0.000131178   0.000180491  -0.000196824  -0.000135949   8.33423e-05
  7096.34       0.000149845  -0.000725297   0.000683809   0.000543311   0.000929926  -0.000202853   3.56113e-05   0.000274309  -0.000147452  -7.76174e-05   0.000195488
  7096.69      -9.50204e-05  -0.000510944   0.00059653   0.000449829   0.000842844  -0.000262719  -3.2482e-05   0.00031769  -9.80798e-05  -1.92861e-05   0.000137664
  7097.04      -0.000174733   0.000376662   0.000509131   0.000356219   0.000755641  -0.000291311  -7.81076e-05   0.000316509  -4.86394e-05   3.91261e-05   1.73614e-05
  7097.39      -0.000245672   0.000466913   0.000421852   0.000262738   0.000668558  -0.000319864  -0.00012367   0.000315329   7.32499e-07   9.74574e-05  -0.000244548
  7097.75      -0.000595514   0.00013928   0.000334573   0.000204972   0.000581476  -0.000348418  -0.000169233   0.00031415   5.01044e-05   0.000155789  -9.35982e-05
  7098.1      -0.000458223   0.000127645   0.000247295   0.000149577   0.000494394  -0.000376971  -0.000214795   0.000312971   9.94764e-05   0.00021412  -6.50533e-06
  7098.45      -0.000536832   0.000360192   0.00015496   8.2518e-05   0.000407312  -0.000405524  -0.000260358   0.000311791   0.000148848   0.000272451   0.000107476
  7098.8       9.92291e-05   0.000190366   1.84051e-05   4.07576e-05   0.000320229  -0.000294575  -0.000313585   0.000199139   0.00019822   0.000330783  -0.000241298
  7099.15       0.000150936   0.000481516   9.23187e-06  -9.4604e-06   0.000233147  -0.000159999  -0.000367829   6.68983e-05   0.000247592   0.000389114  -0.000142085
  7099.51       0.00013059   0.000643969   1.7539e-05  -5.51033e-05   0.000146065  -2.54221e-05  -0.000422072  -6.53426e-05   0.000296964   0.000447445  -3.70313e-05
  7099.86       8.67313e-05   7.66371e-05   1.77207e-05  -7.32758e-05   9.95374e-05   0.000109341  -0.000476391  -0.000197767   0.000346405   0.000505858  -2.08215e-05
  7100.21      -0.000247856   0.000232961   4.85389e-05  -0.000105319   6.7664e-05   0.000243918  -0.000530635  -0.000330008   0.000395776   0.000654515  -7.67203e-05
  7100.56      -0.000403345   0.000456698   7.82138e-05  -0.000133601  -5.8499e-06   0.00040723  -0.00057367  -0.000430135   0.000445148   0.000950582  -0.000213679
  7100.92      -0.00042507   0.000858161  -0.00015101  -0.000144364   2.49835e-06   0.00070944  -0.000565878  -0.000375039   0.000632602   0.0010289  -0.000455415
  7101.27      -0.00034156   0.00087353  -3.62962e-05  -0.00016022   9.0964e-06   0.00101165  -0.000558086  -0.000319943   0.000907522   0.00143457  -0.000442613
  7101.62      -7.2832e-05   0.000905944   5.51869e-05  -0.000145355  -2.67564e-06   0.00131386  -0.000550293  -0.000264847   0.00118244   0.00148497  -0.000218022
  7101.97      -5.36179e-05   0.00130338  -0.000108913  -0.000120439  -9.71444e-05   0.00161607  -0.000542501  -0.00020975   0.00145736   0.00191556  -8.40714e-06
  7102.32      -0.00012697   0.00204862  -0.000113226  -0.000116581  -5.48899e-05   0.00191828  -0.000534709  -0.000154654   0.00173228   0.00231105  -0.000194174
  7102.68      -0.000159882   0.00245035  -0.000145293  -8.67788e-05  -0.000105676   0.00263361  -0.000425898  -0.000140132   0.00200758   0.00272042  -9.15427e-06
  7103.03       0.000177107   0.00211965  -0.00017431  -5.33371e-05  -6.52382e-05   0.00347084  -0.000282272  -0.000139029   0.0022825   0.00291516   7.32667e-07
  7103.38       8.54831e-05   0.00206263  -0.000160864  -1.80511e-05  -1.98427e-05   0.00430806  -0.000138646  -0.000137927   0.00255742   0.00311694   7.07263e-05
  7103.73      -0.000379679   0.00241583  -4.02228e-05   1.39048e-05  -1.69857e-05   0.00514528   4.97974e-06  -0.000136824   0.00283234   0.00377129   0.000260733
  7104.08      -0.000202224   0.00271024   2.37333e-05   7.06212e-05  -1.36899e-05   0.00627717   0.000186232  -7.23479e-05   0.00310726   0.00426758   0.00035291
  7104.44       0.000326016   0.00274361   0.000105361   0.000126627   6.11899e-05   0.00781088   0.000426176   8.7224e-05   0.00338218   0.00490883   0.000169622
  7104.79       0.000557942   0.00414286   0.000272756   0.000207371   8.20402e-05   0.00934459   0.000666119   0.000246796   0.0036571   0.00531927   0.000332119
  7105.14       0.000889157   0.00468087   0.000384838   0.000295455   0.000165067   0.0111216   0.00116811   0.000586741   0.00393202   0.00565829   0.00016824
  7105.49       0.00124693   0.00449561   0.000430115   0.000407686   0.000254877   0.0130334   0.00182514   0.00102519   0.00420733   0.00677959  -8.7135e-05
  7105.85       0.00117979   0.00452535   0.000455294   0.000567556   0.000416764   0.0150751   0.00201218   0.00160912   0.00448225   0.00718796   0.000350668
  7106.2       0.00167485   0.00511756   0.000556818   0.000720794   0.000521721   0.0170241   0.00234   0.00180649   0.00486533   0.00809763   0.0004209
  7106.55       0.00225411   0.00525703   0.000768459   0.00088644   0.000508666   0.0188832   0.00278144   0.00168737   0.00533328   0.00868064   0.000908035
  7106.9       0.00221084   0.00531243   0.000977122   0.00105539   0.000628335   0.0207287   0.00289941   0.00173975   0.00593201   0.0102772   0.00091974
  7107.25       0.00277226   0.00579107   0.0011421   0.00128117   0.000798366   0.0231582   0.00302302   0.00241867   0.00662861   0.0117446   0.00103914
  7107.61       0.00337557   0.00625497   0.00134231   0.00151253   0.00101432   0.0259588   0.00336454   0.00289732   0.00732521   0.0129954   0.00160328
  7107.96       0.00425123   0.00612804   0.00160278   0.00180873   0.00115983   0.0290661   0.00424756   0.00236133   0.00792721   0.0141045   0.00179361
  7108.31       0.00512304   0.00690591   0.00186268   0.00215212   0.00133979   0.0325245   0.00487293   0.00298801   0.00849528   0.0159002   0.00194834
  7108.66       0.00623563   0.0072639   0.002195   0.00252043   0.00160009   0.0366325   0.00556337   0.00348992   0.00906256   0.0182523   0.00228901
  7109.01       0.00709742   0.00759833   0.00256607   0.00294863   0.00183129   0.0415543   0.00639664   0.0036285   0.0101406   0.0210381   0.00264174
  7109.37       0.00836222   0.00773818   0.00288383   0.00344428   0.00204531   0.0476893   0.00740635   0.0035442   0.0112802   0.0245189   0.00293605
  7109.72       0.0100723   0.00837846   0.00334024   0.00407352   0.00234615   0.0558168   0.00841683   0.00411542   0.0124966   0.0287489   0.00344298
  7110.07       0.0122299   0.00923056   0.00392523   0.00477573   0.00279448   0.0661469   0.00960118   0.00496419   0.0151177   0.034773   0.0039706
  7110.42       0.0154274   0.010928   0.00460508   0.00568843   0.00319479   0.0805553   0.0115507   0.00514017   0.0177388   0.0432494   0.00456511
  7110.77       0.019384   0.0121938   0.00551486   0.00682888   0.00370072   0.101427       0.0138369   0.0057887   0.0209101   0.0540726   0.00506385
  7111.13       0.0258269   0.0135314   0.00664898   0.00841395   0.00427055   0.129705       0.0170602   0.00670763   0.0261419   0.0730561   0.0061216
  7111.48       0.0351959   0.0155401   0.00821881   0.0107498   0.00507021   0.167823       0.0219159   0.00785168   0.0313665   0.103683       0.00736446
  7111.83       0.046876   0.01818   0.0106796   0.0141194   0.00619239   0.220189       0.0293085   0.00856665   0.0406208   0.150237       0.00911006
  7112.18       0.0587219   0.0220841   0.014705   0.0196994   0.00763115   0.273383       0.0369875   0.0101192   0.0566704   0.198738       0.0116617
  7112.54       0.0692999   0.0286377   0.0216673   0.0270321   0.00974883   0.325049       0.0442582   0.0126626   0.07272   0.238166       0.0160898
  7112.89       0.0819284   0.0397068   0.0312028   0.0347979   0.0131911   0.365234       0.0465021   0.0157045   0.0882173   0.266298       0.0235737
  7113.24       0.0990544   0.0533082   0.0387176   0.0432653   0.0193693   0.39708       0.0447428   0.0213386   0.103228       0.290436       0.033318
  7113.59       0.115378       0.0654024   0.0409479   0.0503038   0.0280489   0.422168       0.0414809   0.0283411   0.118239       0.313427       0.0408957
  7113.94       0.124101       0.0747935   0.0444184   0.0559717   0.0344083   0.439811       0.0396394   0.0350624   0.123618       0.335581       0.0445299
  7114.3       0.12284       0.08176   0.0536988   0.0591929   0.0333645   0.450962       0.0402529   0.0393668   0.124692       0.357576       0.0506305
  7114.65       0.117488       0.0846878   0.0596621   0.059936   0.030986   0.460769       0.0408538   0.0420268   0.125766       0.377052       0.0583629
  7115       0.113922       0.0811195   0.0546766   0.0588769   0.032746   0.470395       0.0408134   0.0430207   0.12506       0.39346       0.0605662
  7115.35       0.113621       0.0748536   0.0474323   0.057054   0.0348437   0.484699       0.0405461   0.0425345   0.123       0.40649       0.0556242
  7115.7       0.115387       0.0702035   0.0445862   0.0550814   0.0318194   0.506709       0.0422593   0.0396311   0.120939       0.415921       0.0514897
  7116.06       0.118894       0.0688644   0.0450231   0.053511   0.0261886   0.536738       0.045724   0.0347151   0.127012       0.423498       0.0503166
  7116.41       0.123933       0.0691631   0.0463744   0.0525643   0.0221398   0.577265       0.0500913   0.0293261   0.136143       0.429268       0.0501198
  7116.76       0.132204       0.0705781   0.0480122   0.052587   0.0203183   0.619481       0.0562633   0.0265513   0.151244       0.433801       0.0507703
  7117.11       0.143533       0.0723472   0.050402   0.0536072   0.0200097   0.662089       0.0641698   0.0254366   0.195038       0.436668       0.0525513
  7117.46       0.159073       0.0744872   0.0530446   0.0552835   0.0206719   0.704025       0.0746497   0.0257492   0.238831       0.44184       0.0548769
  7117.82       0.178787       0.0768881   0.055665   0.0575862   0.0218515   0.741824       0.0906015   0.0273447   0.300467       0.449911       0.0563752
  7118.17       0.200896       0.0785133   0.058055   0.0605585   0.0232917   0.775902       0.110784       0.0289524   0.397996       0.459799       0.0574932
  7118.52       0.226888       0.0805815   0.0604246   0.0639445   0.0252952   0.806139       0.135627       0.0305229   0.495525       0.476662       0.0586684
  7118.87       0.256487       0.0834993   0.0632734   0.0683302   0.0275323   0.831534       0.174291       0.0344096   0.571035       0.497364       0.060914
  7119.23       0.292653       0.0883963   0.0676053   0.0737655   0.03012   0.852858       0.221279       0.0368643   0.623839       0.519637       0.0641379
  7119.58       0.335485       0.0945591   0.0735345   0.0812307   0.0331086   0.870936       0.277269       0.0388742   0.67657       0.542639       0.0692354
  7119.93       0.38509       0.10331       0.0816674   0.0909089   0.0367468   0.886319       0.348359       0.0427611   0.725545       0.566867       0.0759469
  7120.28       0.439736       0.114705       0.0925465   0.102701       0.0408239   0.898154       0.429556       0.047738   0.76808       0.590853       0.0853929
  7120.63       0.496084       0.130002       0.106585       0.118381       0.0461395   0.908928       0.514376       0.0542272   0.810615       0.614677       0.0974674
  7120.99       0.550413       0.149021       0.123809       0.137354       0.0527405   0.919478       0.600754       0.0628285   0.830612       0.638712       0.112782
  7121.34       0.600072       0.173132       0.145214       0.161124       0.0611191   0.927469       0.686       0.0717371   0.830451       0.662765       0.132805
  7121.69       0.645391       0.203329       0.171297       0.190182       0.0737283   0.935013       0.7692       0.0837342   0.830291       0.686495       0.158135
  7122.04       0.686966       0.241304       0.202589       0.223262       0.0897542   0.942198       0.85153       0.09916   0.81835       0.708186       0.19002
  7122.39       0.727161       0.28528       0.240134       0.260928       0.111518       0.948781       0.938628       0.120148       0.80608       0.730058       0.230352
  7122.75       0.765968       0.334273       0.283085       0.301129       0.137861       0.953187        1.01715       0.144388       0.793811       0.749875       0.278621
  7123.1       0.805124       0.387627       0.330163       0.344778       0.173097       0.95693        1.09207       0.172944       0.794781       0.769654       0.333469
  7123.45       0.845409       0.441075       0.379044       0.390473       0.214205       0.961313        1.16679       0.209136       0.798119       0.785379       0.390888
  7123.8       0.88629       0.491783       0.427216       0.434633       0.261079       0.965279        1.23895       0.252331       0.801486       0.803728       0.445666
  7124.15       0.927006       0.538041       0.475156       0.479226       0.311843       0.968736        1.30947       0.299734       0.808594       0.821337       0.494318
  7124.51       0.965644       0.580491       0.522923       0.524512       0.364055       0.971617        1.3783       0.351172       0.815701       0.8392       0.539043
  7124.86        1.0001       0.620917       0.571015       0.570157       0.415509       0.974976        1.44278       0.402843       0.821889       0.856938       0.582528
  7125.21        1.02858       0.662236       0.622173       0.615963       0.466806       0.979612        1.50435       0.455749       0.826943       0.871169       0.627782
  7125.56        1.05172       0.706753       0.678495       0.664325       0.515191       0.984741        1.56041       0.50951       0.831997       0.888217       0.67812
  7125.92        1.06977       0.755956       0.740515       0.716827       0.562165       0.98823        1.59829       0.563433       0.83482       0.905247       0.733323
  7126.27        1.08492       0.810502       0.807021       0.76975       0.609553       0.992275        1.62889       0.617335       0.833077       0.919016       0.793551
  7126.62        1.09943       0.868791       0.875265       0.824646       0.656498       0.996491        1.65393       0.672219       0.831334       0.930978       0.85828
  7126.97        1.11514       0.928929       0.940972       0.882438       0.705507        1.00067        1.67269       0.729056       0.834286       0.944593       0.924908
  7127.32        1.13441       0.985797        1.00266       0.941006       0.75836        1.00616        1.67731       0.795893       0.838627       0.958055       0.990092
  7127.68        1.15739        1.03903        1.05852       0.999497       0.816463        1.01226        1.67343       0.867066       0.842975       0.969394        1.05222
  7128.03        1.18454        1.08762        1.10901        1.05661       0.87817        1.01865        1.66071       0.941757       0.859724       0.977896        1.11124
  7128.38        1.21496        1.13207        1.15484        1.11391       0.943125        1.02284        1.62727        1.01947       0.877371       0.987205        1.17013
  7128.73        1.24686        1.17344        1.19596        1.16638        1.01149        1.02797        1.58489        1.09826       0.894579       0.998345        1.22744
  7129.08        1.27826        1.2121        1.22869        1.21414        1.08053        1.03361        1.53557        1.17629       0.907464        1.00827        1.28066
  7129.44        1.30652        1.24826        1.25202        1.25911        1.15097        1.03891        1.47978        1.25018       0.920349        1.0159        1.32671
  7129.79        1.32921        1.27901        1.26617        1.29872        1.22069        1.04199        1.42158        1.31405       0.933592        1.02299        1.36175
  7130.14        1.34436        1.30377        1.27369        1.33421        1.28763        1.04507        1.37085        1.37293       0.947898        1.0304        1.38449
  7130.49        1.35181        1.32452        1.27702        1.36463        1.34677        1.04889        1.33282        1.4276       0.962224        1.03946        1.39748
  7130.85        1.35245        1.34182        1.27708        1.39191        1.39606        1.05188        1.30433        1.46964       0.977349        1.04291        1.40349
  7131.2        1.34764        1.35825        1.2756        1.4138        1.43341        1.05537        1.28334        1.50176       0.993641        1.04432        1.40806
  7131.55        1.33856        1.37503        1.27288        1.43233        1.45795        1.05919        1.26879        1.52411        1.00993        1.04768        1.4142
  7131.9        1.32688        1.39269        1.26923        1.44671        1.47207        1.06218        1.25619        1.53695        1.02567        1.04673        1.42456
  7132.25        1.31391        1.40993        1.26584        1.4565        1.47998        1.06318        1.23986        1.53992        1.04004        1.04486        1.43934
  7132.61        1.29893        1.42771        1.26272        1.46253        1.48512        1.06398        1.22108        1.53892        1.05441        1.04036        1.45712
  7132.96        1.28252        1.44217        1.26092        1.4644        1.48825        1.06609        1.20006        1.53783        1.06717        1.03472        1.47476
  7133.31        1.26629        1.45274        1.26089        1.46263        1.48982        1.0675        1.17607        1.53103        1.07794        1.03091        1.4887
  7133.66        1.2496        1.45699        1.25837        1.45789        1.48844        1.06798        1.15446        1.52071        1.08869        1.02615        1.49697
  7134.01        1.23332        1.45404        1.25444        1.45018        1.48385        1.06748        1.13647        1.50717        1.09782        1.02117        1.49838
  7134.37        1.21846        1.44616        1.25152        1.44104        1.47561        1.06764        1.12547        1.49993        1.1059        1.01609        1.49129
  7134.72        1.20506        1.43321        1.24741        1.4294        1.4656        1.06799        1.11645        1.49437        1.11386        1.01392        1.47777
  7135.07        1.19382        1.41578        1.24211        1.41754        1.4562        1.06834        1.10743        1.48884        1.11947        1.00998        1.45857
  7135.42        1.18411        1.39684        1.23755        1.4048        1.44651        1.06863        1.10048        1.48525        1.12509        1.00568        1.43573
  7135.77        1.17563        1.37618        1.23236        1.39234        1.43908        1.06893        1.09359        1.48166        1.13088        1.00325        1.41225
  7136.13        1.16806        1.3565        1.22738        1.3799        1.43293        1.06922        1.0867        1.47807        1.13733        1.00043        1.38945
  7136.48        1.16128        1.33967        1.2234        1.36848        1.42784        1.06951        1.07981        1.47448        1.14377       0.994386        1.36861
  7136.83        1.15501        1.32401        1.22045        1.3567        1.42285        1.0691        1.07434        1.47153        1.1494       0.994058        1.35113
  7137.18        1.14865        1.31207        1.2173        1.34514        1.41696        1.06829        1.06992        1.46898        1.15365       0.990689        1.33657
  7137.54        1.14258        1.30133        1.20633        1.33437        1.41085        1.06747        1.0655        1.46643        1.1579       0.990884        1.3238
  7137.89        1.13584        1.29147        1.20924        1.32331        1.40519        1.06666        1.06108        1.46388        1.15936       0.988662        1.3116
  7138.24        1.13008        1.28238        1.20407        1.3121        1.3989        1.06585        1.05666        1.46132        1.15836       0.988753        1.29857
  7138.59        1.12324        1.27275        1.19809        1.30043        1.39214        1.06509        1.05246        1.45826        1.15736       0.987186        1.28398
  7138.94        1.11706        1.26214        1.19091        1.28856        1.38438        1.06455        1.04984        1.45185        1.15673       0.98734        1.26792
  7139.3        1.10954        1.25092        1.18306        1.27654        1.37339        1.06402        1.04722        1.44545        1.15665       0.986711        1.25037
  7139.65        1.10239        1.23848        1.17445        1.26418        1.36316        1.06349        1.0446        1.43904        1.15656       0.988452        1.23193
  7140        1.09542        1.22503        1.16592        1.25166        1.35116        1.06296        1.04198        1.43264        1.15684       0.990504        1.21275
  7140.63        1.08441        1.19971        1.15112        1.22863        1.328        1.0619        1.03683        1.41991        1.15745       0.994218        1.17937
  7141.28        1.07622        1.17399        1.13794        1.20602        1.30275        1.05991        1.02716        1.39386        1.15632       0.99645        1.14753
  7141.94        1.07232        1.14821        1.12603        1.18404        1.27523        1.05787        1.01721        1.36704        1.15493       0.997297        1.11883
  7142.63        1.07227        1.12411        1.11517        1.16324        1.24617        1.05584        1.00668        1.33899        1.1535       0.996963        1.0943
  7143.33        1.07488        1.10272        1.10516        1.1453        1.21823        1.0546       0.991559        1.30362        1.14434       0.994424        1.07363
  7144.06        1.07704        1.08672        1.09662        1.13043        1.19005        1.05332       0.976021        1.26727        1.13241       0.992388        1.05922
  7144.8        1.07647        1.07753        1.08984        1.11903        1.16542        1.05217       0.96164        1.23362        1.12014       0.990103        1.05155
  7145.57        1.07214        1.07536        1.08464        1.11065        1.14295        1.05142       0.95104        1.20853        1.10422       0.990089        1.04948
  7146.35        1.06404        1.07915        1.08011        1.1039        1.12183        1.05064       0.940175        1.18281        1.0879       0.992685        1.05118
  7147.15        1.05193        1.0825        1.07492        1.09644        1.10244        1.05003       0.92997        1.15738        1.07421       0.997498        1.05283
  7147.97        1.03635        1.08243        1.06724        1.08595        1.08453        1.04948       0.919993        1.13182        1.06425        1.00457        1.04932
  7148.81        1.01886        1.07361        1.05385        1.07107        1.06743        1.04856       0.909238        1.10762        1.05428        1.0124        1.03778
  7149.67        1.00166        1.05568        1.03314        1.05171        1.05132        1.04624       0.896074        1.09061        1.04569        1.01924        1.01844
  7150.54       0.986996        1.03137        1.00736        1.02834        1.03526        1.04386       0.88261        1.07322        1.03691        1.02452       0.995429
  7151.44       0.975067        1.00711       0.978727        1.00269        1.01952        1.04092       0.872877        1.05311        1.02736        1.02947       0.972283
  7152.36       0.96573       0.984659       0.951458       0.977439        1.00227        1.03785       0.86348        1.03222        1.01736        1.03511       0.951272
  7153.29       0.957972       0.965502       0.929006       0.9539       0.982343        1.03474       0.860835        1.01182        1.00807        1.04081       0.93247
  7154.25       0.950831       0.949193       0.912175       0.933289       0.959018        1.03159       0.861688       0.991499       0.999148        1.0467       0.915027
  7155.22       0.944488       0.933962       0.898672       0.914915       0.932589        1.02774       0.865045       0.967181       0.991621        1.05137       0.897893
  7156.21       0.937604       0.918993       0.886417       0.898857       0.904305        1.02326       0.870611       0.939298       0.986072        1.05424       0.880907
  7157.22       0.930221       0.903614       0.874298       0.885028       0.875517        1.01841       0.878752       0.912473       0.979903        1.05678       0.864367
  7158.26       0.924975       0.889039       0.862728       0.873232       0.848027        1.01318       0.889452       0.886704       0.972896        1.05847       0.849952
  7159.31       0.921448       0.876327       0.854678       0.863667       0.823804        1.00713       0.905198       0.863954       0.962539        1.05915       0.839799
  7160.38       0.92182       0.867661       0.851395       0.856882       0.805526        1.00033       0.925241       0.843717       0.948467        1.0597       0.83455
  7161.46       0.924364       0.863425       0.852538       0.853572       0.792848       0.995445       0.945971       0.831075       0.933771        1.05929       0.834059
  7162.57       0.927907       0.863127       0.857551       0.853669       0.787659       0.991597       0.967248       0.822413       0.918569        1.05525       0.837405
  7163.7       0.932108       0.866216       0.866523       0.857385       0.79059       0.988071       0.989748       0.822374       0.913012        1.04889       0.84402
  7164.84       0.937119       0.872438       0.87939       0.864608       0.800739       0.98476        1.01255       0.824473       0.910391        1.04217       0.852624
  7166.01       0.942559       0.880808       0.895009       0.874918       0.817225       0.985266        1.03096       0.831906       0.91967        1.03437       0.862667
  7167.19       0.950468       0.89033       0.913095       0.888081       0.839317       0.985601        1.04714       0.844229       0.93065        1.02797       0.873881
  7168.4       0.959401       0.900707       0.93276       0.903782       0.865513       0.985559        1.0583       0.866756       0.944962        1.02201       0.887644
  7169.62       0.969912       0.913797       0.952607       0.921423       0.894545       0.985751        1.06693       0.88771       0.955107        1.01566       0.905829
  7170.86       0.981784       0.930106       0.972029       0.940693       0.92442       0.986099        1.07415       0.907987       0.963578        1.00926       0.928913
  7172.12       0.994208       0.950685       0.990469       0.960525       0.954006       0.988544        1.07782       0.937065       0.965156        1.00354       0.956343
  7173.4        1.00424       0.974355        1.00947       0.981793       0.982044       0.990648        1.08016       0.965134       0.967152       0.997422       0.987883
  7174.7        1.013        1.00109        1.0307        1.004        1.00932       0.992253        1.08059       0.991615       0.969635       0.990063        1.02062
  7176.02        1.02077        1.02495        1.04861        1.02384        1.03634       0.992714        1.07723        1.01537       0.976621       0.982992        1.04728
  7177.36        1.02782        1.04104        1.05891        1.03844        1.05789       0.993394        1.0726        1.03984       0.98516       0.975809        1.06406
  7178.71        1.03568        1.0513        1.06268        1.04819        1.07041       0.994876        1.06669        1.06644       0.995891       0.969096        1.07506
  7180.09        1.04363        1.05855        1.0619        1.05534        1.0785       0.996554        1.06206        1.07814        1.00534       0.964964        1.08166
  7181.48        1.04909        1.06419        1.05823        1.06085        1.08408       0.998042        1.05705        1.08418        1.01483       0.962541        1.08456
  7182.9        1.05123        1.06708        1.05345        1.06441        1.08653       0.99915        1.05107        1.0855        1.02369       0.964724        1.08486
  7184.33        1.04973        1.06889        1.04967        1.06594        1.08544        1.00157        1.0423        1.09128        1.028       0.967487        1.08266
  7185.78        1.04605        1.06717        1.04769        1.06578        1.08284        1.00299        1.03608        1.09183        1.03237       0.972334        1.07903
  7187.26        1.04126        1.06474        1.04658        1.06443        1.0799        1.00419        1.03026        1.08902        1.03739       0.981344        1.07542
  7188.75        1.0363        1.06186        1.04573        1.0628        1.07664        1.00857        1.01543        1.0914        1.04252       0.98895        1.07228
  7190.26        1.0304        1.05914        1.04493        1.06069        1.07439        1.00977       0.998535        1.09133        1.04961       0.999207        1.06901
  7191.79        1.02381        1.0548        1.04304        1.05765        1.07199        1.00944       0.983438        1.0922        1.05687        1.01057        1.064
  7193.34        1.01515        1.05045        1.04083        1.05365        1.06901        1.00816       0.971026        1.09362        1.06701        1.02033        1.05673
  7194.9        1.0062        1.04329        1.03874        1.04937        1.06543        1.00639       0.959946        1.09027        1.07729        1.02574        1.04808
  7196.49       0.994829        1.03486        1.02981        1.04495        1.06263        1.00359       0.951486        1.09033        1.08597        1.02671        1.03927
  7198.09       0.983665        1.02637        1.03385        1.04087        1.06084        1.00015       0.945326        1.08777        1.09459        1.02572        1.0306
  7199.72       0.97222        1.01767        1.04533        1.03674        1.05835       0.996317       0.943681        1.08197        1.1028        1.02309        1.02189